{
  "resourceType": "Bundle",
  "id": "CPDSBundleB",
  "type": "collection",
  "entry": [
    {
      "resource": {
        "resourceType": "Composition",
        "id": "CPDSCompositionB",
        "meta": {
          "profile": [
            "http://hl7.org/fhir/us/cancer-reporting/StructureDefinition/us-pathology-composition"
          ]
        },
        "status": "final",
        "type": {
          "coding": [
            {
              "code": "11526-1",
              "system": "http://loinc.org",
              "display": "Pathology Study"
            }
          ]
        },
        "date": "2024-09-25T12:00:00+00:00",
        "subject": {
          "reference": "Patient/CPDSPatientB"
        },
        "author": [
          {
            "reference": "PractitionerRole/CPDSOncologistRole"
          }
        ],
        "title": "Surgical Pathology Cancer Case Summary",
        "section": [
          {
            "title": "Lab Report Section",
            "code": {
              "coding": [
                {
                  "code": "26436-6",
                  "system": "http://loinc.org",
                  "display": "Laboratory Studies (set)"
                }
              ]
            },
            "entry": [
              {
                "reference": "DiagnosticReport/CPDSDiagnosticReportB"
              }
            ]
          }
        ]
      }
    },
    {
      "resource": {
        "resourceType": "DiagnosticReport",
        "id": "CPDSDiagnosticReportB",
        "meta": {
          "profile": [
            "http://hl7.org/fhir/us/cancer-reporting/StructureDefinition/us-pathology-diagnostic-report"
          ]
        },
        "status": "final",
        "category": [
          {
            "coding": [
              {
                "code": "LP7839-6",
                "system": "http://loinc.org",
                "display": "Pathology"
              }
            ]
          }
        ],
        "code": {
          "coding": [
            {
              "code": "60568-3",
              "system": "http://loinc.org",
              "display": "Pathology Synoptic report"
            }
          ]
        },
        "subject": {
          "reference": "Patient/CPDSPatientB"
        },
        "encounter": {
          "reference": "Encounter/CPDSEncounterB"
        },
        "effectiveDateTime": "2025-01-06T21:39:30.000Z",
        "result": [
          {
            "reference": "Observation/CPDSCaseSummaryGrouperB"
          },
          {
            "reference": "Observation/CPDSClinicalGrouperB"
          },
          {
            "reference": "Observation/CPDSSpecimenGrouperB"
          },
          {
            "reference": "Observation/CPDSTumorGrouperB"
          },
          {
            "reference": "Observation/CPDSMarginsGrouperB"
          },
          {
            "reference": "Observation/CPDSLymphNodesGrouperB"
          },
          {
            "reference": "Observation/CPDSPathologicStageGrouperB"
          },
          {
            "reference": "Observation/CPDSAdditionalFindingsGrouperB"
          },
          {
            "reference": "Observation/CPDSSpecialStudiesGrouperB"
          },
          {
            "reference": "Observation/CPDSCommentsGrouperB"
          }
        ],
        "presentedForm": [
          {
            "contentType": "text/xml",
            "data": ""
          }
        ]
      }
    },
    {
      "resource": {
        "resourceType": "Patient",
        "id": "CPDSPatientB",
        "meta": {
          "profile": [
            "http://hl7.org/fhir/us/core/StructureDefinition/us-core-patient"
          ]
        },
        "identifier": [
          {
            "system": "urn:NPI",
            "value": "0000000012"
          }
        ],
        "name": [
          {
            "family": "B",
            "given": [
              "Patient"
            ]
          }
        ],
        "gender": "female",
        "link": [
          {
            "other": {
              "reference": "RelatedPerson/CPDSRelatedPersonB"
            },
            "type": "seealso"
          }
        ]
      }
    },
    {
      "resource": {
        "resourceType": "Encounter",
        "id": "CPDSEncounterB",
        "meta": {
          "profile": [
            "http://hl7.org/fhir/us/core/StructureDefinition/us-core-encounter"
          ]
        },
        "identifier": [
          {
            "system": "http://example.org/hospital",
            "value": "OncEncounterB"
          }
        ],
        "status": "finished",
        "class": {
          "code": "IMP",
          "system": "http://terminology.hl7.org/CodeSystem/v3-ActCode",
          "display": "inpatient encounter"
        },
        "type": [
          {
            "coding": [
              {
                "code": "726007",
                "system": "http://snomed.info/sct",
                "display": "Pathology consultation, comprehensive, records and specimen with report"
              }
            ]
          }
        ],
        "subject": {
          "reference": "Patient/CPDSPatientB"
        },
        "participant": [
          {
            "individual": {
              "reference": "Practitioner/CPDSOncologist"
            }
          },
          {
            "individual": {
              "reference": "Practitioner/CPDSPathologist"
            }
          }
        ]
      }
    },
    {
      "resource": {
        "resourceType": "RelatedPerson",
        "id": "CPDSRelatedPersonB",
        "active": true,
        "patient": {
          "reference": "Patient/CPDSPatientB"
        },
        "relationship": [
          {
            "coding": [
              {
                "code": "N",
                "system": "http://terminology.hl7.org",
                "display": "Next-of-Kin"
              }
            ]
          }
        ],
        "name": [
          {
            "family": "B",
            "given": [
              "Related"
            ]
          }
        ],
        "telecom": [
          {
            "system": "phone",
            "value": "000-000-0003"
          }
        ]
      }
    },
    {
      "resource": {
        "resourceType": "Specimen",
        "id": "CPDSSpecimen",
        "identifier": [
          {
            "system": "http://example.org/lis/specimen-identifier-provisioner",
            "value": "specimen-id"
          }
        ],
        "accessionIdentifier": {
          "system": "http://example.org/lis/specimen-identifier-provisioner",
          "value": "specimen-id-X"
        },
        "status": "available",
        "type": {
          "coding": [
            {
              "code": "396525008",
              "system": "http://snomed.info/sct",
              "display": "\tSpecimen from adrenal gland obtained by needle biopsy (specimen)"
            }
          ]
        }
      }
    },
    {
      "resource": {
        "resourceType": "PractitionerRole",
        "id": "CPDSOncologistRole",
        "meta": {
          "profile": [
            "http://hl7.org/fhir/us/cancer-reporting/StructureDefinition/us-pathology-related-practitioner-role"
          ]
        },
        "practitioner": {
          "reference": "Practitioner/CPDSOncologist"
        },
        "organization": {
          "reference": "Organization/CPDSOncologyCenter"
        },
        "code": [
          {
            "coding": [
              {
                "code": "OP",
                "system": "http://terminology.hl7.org/CodeSystem/v2-0443",
                "display": "Ordering Provider"
              }
            ]
          }
        ],
        "telecom": [
          {
            "system": "phone",
            "value": "000-000-0000"
          }
        ]
      }
    },
    {
      "resource": {
        "resourceType": "PractitionerRole",
        "id": "CPDSPathologistRole",
        "meta": {
          "profile": [
            "http://hl7.org/fhir/us/cancer-reporting/StructureDefinition/us-pathology-related-practitioner-role"
          ]
        },
        "practitioner": {
          "reference": "Practitioner/CPDSPathologist"
        },
        "organization": {
          "reference": "Organization/CPDSPathologyLab"
        },
        "code": [
          {
            "coding": [
              {
                "code": "PI",
                "system": "http://terminology.hl7.org/CodeSystem/v2-0443",
                "display": "Primary Interpreter"
              }
            ]
          }
        ],
        "telecom": [
          {
            "system": "phone",
            "value": "000-000-0001"
          }
        ]
      }
    },
    {
      "resource": {
        "resourceType": "Organization",
        "id": "CPDSPathologyLab",
        "meta": {
          "profile": [
            "http://hl7.org/fhir/us/core/StructureDefinition/us-core-organization"
          ]
        },
        "active": true,
        "name": "Pathology Lab"
      }
    },
    {
      "resource": {
        "resourceType": "Organization",
        "id": "CPDSOncologyCenter",
        "meta": {
          "profile": [
            "http://hl7.org/fhir/us/core/StructureDefinition/us-core-organization"
          ]
        },
        "active": true,
        "name": "Oncology Center"
      }
    },
    {
      "resource": {
        "resourceType": "Practitioner",
        "id": "CPDSOncologist",
        "meta": {
          "profile": [
            "http://hl7.org/fhir/us/core/StructureDefinition/us-core-practitioner"
          ]
        },
        "identifier": [
          {
            "system": "http://hl7.org/fhir/sid/us-npi",
            "value": "0000000021"
          }
        ],
        "name": [
          {
            "family": "Oncologist",
            "given": [
              "John"
            ],
            "prefix": [
              "Dr."
            ]
          }
        ]
      }
    },
    {
      "resource": {
        "resourceType": "Practitioner",
        "id": "CPDSPathologist",
        "meta": {
          "profile": [
            "http://hl7.org/fhir/us/core/StructureDefinition/us-core-practitioner"
          ]
        },
        "identifier": [
          {
            "system": "http://hl7.org/fhir/sid/us-npi",
            "value": "0000000022"
          }
        ],
        "name": [
          {
            "family": "Pathologist",
            "given": [
              "Jane"
            ],
            "prefix": [
              "Dr."
            ]
          }
        ]
      }
    },
    {
      "resource": {
        "resourceType": "Observation",
        "id": "CPDSCaseSummaryGrouperB",
        "meta": {
          "profile": [
            "http://hl7.org/fhir/us/cancer-reporting/StructureDefinition/us-pathology-grouper-observation"
          ]
        },
        "identifier": [
          {
            "system": "https://cap.org/eCC",
            "value": "urn:uuid:3bf4de86-cd12-4122-a4f9-0707136665a5"
          }
        ],
        "status": "final",
        "code": {
          "coding": [
            {
              "code": "CASE-SUMMARY",
              "system": "http://hl7.org/fhir/us/cancer-reporting/CodeSystem/us-pathology-codesystem",
              "display": "Case Summary Section"
            },
            {
              "code": "4257.100004300",
              "system": "http://cap.org/eCC"
            }
          ]
        },
        "subject": {
          "reference": "Patient/CPDSPatientB"
        }
      }
    },
    {
      "resource": {
        "resourceType": "Observation",
        "id": "CPDSClinicalGrouperB",
        "meta": {
          "profile": [
            "http://hl7.org/fhir/us/cancer-reporting/StructureDefinition/us-pathology-grouper-observation"
          ]
        },
        "identifier": [
          {
            "system": "https://cap.org/eCC",
            "value": "urn:uuid:3bf4de86-cd12-4122-a4f9-0707136665a5"
          }
        ],
        "status": "final",
        "code": {
          "coding": [
            {
              "code": "CLINICAL",
              "system": "http://hl7.org/fhir/us/cancer-reporting/CodeSystem/us-pathology-codesystem",
              "display": "Clinical Section"
            },
            {
              "code": "17537.100004300",
              "system": "http://cap.org/eCC",
              "display": "CLINICAL"
            }
          ]
        },
        "hasMember": [
          {
            "reference": "Observation/CPDSFunctionalStatusObservationB"
          }
        ],
        "subject": {
          "reference": "Patient/CPDSPatientB"
        }
      }
    },
    {
      "resource": {
        "resourceType": "Observation",
        "id": "CPDSClinicalHistoryObservationB",
        "meta": {
          "profile": [
            "http://hl7.org/fhir/us/cancer-reporting/StructureDefinition/ihe-sdc-ecc-Observation"
          ]
        },
        "identifier": [
          {
            "system": "https://cap.org/eCC",
            "value": "urn:uuid:3bf4de86-cd12-4122-a4f9-0707136665a5"
          }
        ],
        "status": "final",
        "code": {
          "coding": [
            {
              "code": "4156.100004300",
              "system": "http://cap.org/eCC",
              "display": "Clinical History (specify)"
            }
          ]
        },
        "valueString": "",
        "subject": {
          "reference": "Patient/CPDSPatientB"
        }
      }
    },
    {
      "resource": {
        "resourceType": "Observation",
        "id": "CPDSFunctionalStatusObservationB",
        "meta": {
          "profile": [
            "http://hl7.org/fhir/us/cancer-reporting/StructureDefinition/ihe-sdc-ecc-Observation"
          ]
        },
        "identifier": [
          {
            "system": "https://cap.org/eCC",
            "value": "urn:uuid:3bf4de86-cd12-4122-a4f9-0707136665a5"
          }
        ],
        "status": "final",
        "code": {
          "coding": [
            {
              "code": "53772.100004300",
              "system": "http://cap.org/eCC",
              "display": "Functional Status (Notes J and K)"
            }
          ]
        },
        "valueCodeableConcept": {
          "coding": [
            {
              "code": "20900.100004300",
              "system": "http://cap.org/eCC",
              "display": "Urinary 17-ketosteroids increased (10 mg / g creatinine / 24 hours)"
            }
          ]
        },
        "subject": {
          "reference": "Patient/CPDSPatientB"
        }
      }
    },
    {
      "resource": {
        "resourceType": "Observation",
        "id": "CPDSSpecimenGrouperB",
        "meta": {
          "profile": [
            "http://hl7.org/fhir/us/cancer-reporting/StructureDefinition/us-pathology-grouper-observation"
          ]
        },
        "identifier": [
          {
            "system": "https://cap.org/eCC",
            "value": "urn:uuid:3bf4de86-cd12-4122-a4f9-0707136665a5"
          }
        ],
        "status": "final",
        "code": {
          "coding": [
            {
              "code": "SPECIMEN",
              "system": "http://hl7.org/fhir/us/cancer-reporting/CodeSystem/us-pathology-codesystem",
              "display": "Specimen Section"
            },
            {
              "code": "17875.100004300",
              "system": "http://cap.org/eCC",
              "display": "SPECIMEN"
            }
          ]
        },
        "hasMember": [
          {
            "reference": "Observation/CPDSProcedureObservationB"
          }
        ],
        "subject": {
          "reference": "Patient/CPDSPatientB"
        }
      }
    },
    {
      "resource": {
        "resourceType": "Observation",
        "id": "CPDSProcedureObservationB",
        "meta": {
          "profile": [
            "http://hl7.org/fhir/us/cancer-reporting/StructureDefinition/ihe-sdc-ecc-Observation"
          ]
        },
        "identifier": [
          {
            "system": "https://cap.org/eCC",
            "value": "urn:uuid:3bf4de86-cd12-4122-a4f9-0707136665a5"
          }
        ],
        "status": "final",
        "code": {
          "coding": [
            {
              "code": "42554.100004300",
              "system": "http://cap.org/eCC",
              "display": "Procedure"
            }
          ]
        },
        "valueCodeableConcept": {
          "coding": [
            {
              "code": "50809.100004300",
              "system": "http://cap.org/eCC",
              "display": "Percutaneous needle biopsy"
            }
          ]
        },
        "subject": {
          "reference": "Patient/CPDSPatientB"
        }
      }
    },
    {
      "resource": {
        "resourceType": "Observation",
        "id": "CPDSTumorGrouperB",
        "meta": {
          "profile": [
            "http://hl7.org/fhir/us/cancer-reporting/StructureDefinition/us-pathology-grouper-observation"
          ]
        },
        "identifier": [
          {
            "system": "https://cap.org/eCC",
            "value": "urn:uuid:3bf4de86-cd12-4122-a4f9-0707136665a5"
          }
        ],
        "status": "final",
        "code": {
          "coding": [
            {
              "code": "TUMOR",
              "system": "http://hl7.org/fhir/us/cancer-reporting/CodeSystem/us-pathology-codesystem",
              "display": "Tumor Section"
            },
            {
              "code": "17876.100004300",
              "system": "http://cap.org/eCC",
              "display": "TUMOR"
            }
          ]
        },
        "hasMember": [
          {
            "reference": "Observation/CPDSHistologicGradeObservationB"
          }
        ],
        "subject": {
          "reference": "Patient/CPDSPatientB"
        }
      }
    },
    {
      "resource": {
        "resourceType": "Observation",
        "id": "CPDSHistologicTypeObservationB",
        "meta": {
          "profile": [
            "http://hl7.org/fhir/us/cancer-reporting/StructureDefinition/ihe-sdc-ecc-Observation"
          ]
        },
        "identifier": [
          {
            "system": "https://cap.org/eCC",
            "value": "urn:uuid:3bf4de86-cd12-4122-a4f9-0707136665a5"
          }
        ],
        "status": "final",
        "code": {
          "coding": [
            {
              "code": "59852.100004300",
              "system": "http://cap.org/eCC",
              "display": "Histologic Type (Notes C through E)"
            }
          ]
        },
        "valueCodeableConcept": {
          "coding": [
            {
              "code": "2117.100004300",
              "system": "http://cap.org/eCC",
              "display": "Adrenal cortical carcinoma"
            }
          ]
        },
        "subject": {
          "reference": "Patient/CPDSPatientB"
        }
      }
    },
    {
      "resource": {
        "resourceType": "Observation",
        "id": "CPDSHistologicGradeObservationB",
        "meta": {
          "profile": [
            "http://hl7.org/fhir/us/cancer-reporting/StructureDefinition/ihe-sdc-ecc-Observation"
          ]
        },
        "identifier": [
          {
            "system": "https://cap.org/eCC",
            "value": "urn:uuid:3bf4de86-cd12-4122-a4f9-0707136665a5"
          }
        ],
        "status": "final",
        "code": {
          "coding": [
            {
              "code": "49275.100004300",
              "system": "http://cap.org/eCC",
              "display": "Histologic Grade (Notes C through E)"
            }
          ]
        },
        "valueCodeableConcept": {
          "coding": [
            {
              "code": "53603.100004300",
              "system": "http://cap.org/eCC",
              "display": "Low grade (&lt;= 20 mitoses / 50 high-power fields)"
            }
          ]
        },
        "subject": {
          "reference": "Patient/CPDSPatientB"
        }
      }
    },
    {
      "resource": {
        "resourceType": "Observation",
        "id": "CPDSMarginsGrouperB",
        "meta": {
          "profile": [
            "http://hl7.org/fhir/us/cancer-reporting/StructureDefinition/us-pathology-grouper-observation"
          ]
        },
        "identifier": [
          {
            "system": "https://cap.org/eCC",
            "value": "urn:uuid:3bf4de86-cd12-4122-a4f9-0707136665a5"
          }
        ],
        "status": "final",
        "code": {
          "coding": [
            {
              "code": "MARGINS",
              "system": "http://hl7.org/fhir/us/cancer-reporting/CodeSystem/us-pathology-codesystem",
              "display": "Margins Section"
            },
            {
              "code": "17878.100004300",
              "system": "http://cap.org/eCC",
              "display": "MARGINS"
            }
          ]
        },
        "subject": {
          "reference": "Patient/CPDSPatientB"
        }
      }
    },
    {
      "resource": {
        "resourceType": "Observation",
        "id": "CPDSLymphNodesGrouperB",
        "meta": {
          "profile": [
            "http://hl7.org/fhir/us/cancer-reporting/StructureDefinition/us-pathology-grouper-observation"
          ]
        },
        "identifier": [
          {
            "system": "https://cap.org/eCC",
            "value": "urn:uuid:3bf4de86-cd12-4122-a4f9-0707136665a5"
          }
        ],
        "status": "final",
        "code": {
          "coding": [
            {
              "code": "LYMPH-NODES",
              "system": "http://hl7.org/fhir/us/cancer-reporting/CodeSystem/us-pathology-codesystem",
              "display": "Lymph Nodes Section"
            },
            {
              "code": "17881.100004300",
              "system": "http://cap.org/eCC",
              "display": "LYMPH NODES"
            }
          ]
        },
        "subject": {
          "reference": "Patient/CPDSPatientB"
        }
      }
    },
    {
      "resource": {
        "resourceType": "Observation",
        "id": "CPDSPathologicStageGrouperB",
        "meta": {
          "profile": [
            "http://hl7.org/fhir/us/cancer-reporting/StructureDefinition/us-pathology-grouper-observation"
          ]
        },
        "identifier": [
          {
            "system": "https://cap.org/eCC",
            "value": "urn:uuid:3bf4de86-cd12-4122-a4f9-0707136665a5"
          }
        ],
        "status": "final",
        "code": {
          "coding": [
            {
              "code": "PTNM-CLASSIFICATION",
              "system": "http://hl7.org/fhir/us/cancer-reporting/CodeSystem/us-pathology-codesystem",
              "display": "pTNM Classification Section"
            },
            {
              "code": "2136.100004300",
              "system": "http://cap.org/eCC",
              "display": "PATHOLOGIC STAGE CLASSIFICATION  (pTNM, AJCC 8th Edition) (Note G)"
            }
          ]
        },
        "subject": {
          "reference": "Patient/CPDSPatientB"
        }
      }
    },
    {
      "resource": {
        "resourceType": "Observation",
        "id": "CPDSAdditionalFindingsGrouperB",
        "meta": {
          "profile": [
            "http://hl7.org/fhir/us/cancer-reporting/StructureDefinition/us-pathology-grouper-observation"
          ]
        },
        "identifier": [
          {
            "system": "https://cap.org/eCC",
            "value": "urn:uuid:3bf4de86-cd12-4122-a4f9-0707136665a5"
          }
        ],
        "status": "final",
        "code": {
          "coding": [
            {
              "code": "ADDITIONAL-FINDINGS",
              "system": "http://hl7.org/fhir/us/cancer-reporting/CodeSystem/us-pathology-codesystem",
              "display": "Additional Findings Section"
            },
            {
              "code": "17884.100004300",
              "system": "http://cap.org/eCC",
              "display": "ADDITIONAL FINDINGS"
            }
          ]
        },
        "subject": {
          "reference": "Patient/CPDSPatientB"
        }
      }
    },
    {
      "resource": {
        "resourceType": "Observation",
        "id": "CPDSSpecialStudiesGrouperB",
        "meta": {
          "profile": [
            "http://hl7.org/fhir/us/cancer-reporting/StructureDefinition/us-pathology-grouper-observation"
          ]
        },
        "identifier": [
          {
            "system": "https://cap.org/eCC",
            "value": "urn:uuid:3bf4de86-cd12-4122-a4f9-0707136665a5"
          }
        ],
        "status": "final",
        "code": {
          "coding": [
            {
              "code": "SPECIAL-STUDIES",
              "system": "http://hl7.org/fhir/us/cancer-reporting/CodeSystem/us-pathology-codesystem",
              "display": "Special Studies Section"
            },
            {
              "code": "17880.100004300",
              "system": "http://cap.org/eCC",
              "display": "SPECIAL STUDIES"
            }
          ]
        },
        "subject": {
          "reference": "Patient/CPDSPatientB"
        }
      }
    },
    {
      "resource": {
        "resourceType": "Observation",
        "id": "CPDSCommentsGrouperB",
        "meta": {
          "profile": [
            "http://hl7.org/fhir/us/cancer-reporting/StructureDefinition/us-pathology-grouper-observation"
          ]
        },
        "identifier": [
          {
            "system": "https://cap.org/eCC",
            "value": "urn:uuid:3bf4de86-cd12-4122-a4f9-0707136665a5"
          }
        ],
        "status": "final",
        "code": {
          "coding": [
            {
              "code": "COMMENTS",
              "system": "http://hl7.org/fhir/us/cancer-reporting/CodeSystem/us-pathology-codesystem",
              "display": "Comments Section"
            },
            {
              "code": "2168.100004300",
              "system": "http://cap.org/eCC",
              "display": "?Comment(s)"
            }
          ]
        },
        "subject": {
          "reference": "Patient/CPDSPatientB"
        }
      }
    }
  ]
}
